File: src/xps_convert/test-files/2025-03-12_TiO2_2.11.xy
# Created by:        SpecsLab Prodigy, Version 4.120.1-r122398
#
# XY-Serializer Export Settings:
#   Comment Prefix:           #
#   Output Meta Data:         yes
#   Energy Axis:              Kinetic Energy
#   Count Rate:               Counts per Second
#   Separate Scan Data:       no
#   Separate Channel Data:    no
#   External Channel Data:    yes
#   Transmission Function:    no
#   Error Bar:                no
#   Operation Results:        yes
#   Time Zone Format:         UTC
#
# Group:                        50 W Al, before sputtering at x=0.4, z=10.0
#
# Region:                       Survey
# Spectrum ID:                  36
# Acquisition Date:             03/12/25 08:12:11 UTC
# Analysis Method:              XPS
# Analyzer:                     Analyzer Munich
# Analyzer Lens:                SmallArea:3.5kV
# Analyzer Slit:                5:7x20c\C:mesh
# Scan Mode:                    FixedAnalyzerTransmission
# Scan Variable:                Kinetic Energy
# Curves/Scan:                  1
# Values/Curve:                 1406
# Dwell Time:                   0.1
# Excitation Energy:            1486.31
# Kinetic Energy:               86.31
# Pass Energy:                  60
# Bias Voltage:                 100
# Detector Voltage:             1750
# Eff. Workfunction:            4.367
# Source:                       µFOCUS 450
# Comment:

# Cycle: 0
#
# Number of Scans: 1

# Cycle: 0, Curve: 0
#
# Acquisition Date:             03/12/25 08:12:11 UTC
# ColumnLabels:                 energy counts/s
#
86.31  5926.12
87.31  5702.824
88.31  5749.139
89.31  5750.41
90.31  5848.02
91.31  6080.51
92.31  6133.38
93.31  6143.49
94.31  6435.34
95.31  6230.542
96.31  6191.335
97.31  6256.2
98.31  6509.86
99.31  6270.65
100.31  6437.348
101.31  6612.585
102.31  5777.17
103.31  6014.97
104.31  6322.29
105.31  6920.12
106.31  6595.96
107.31  6429.307
108.31  6645.53
109.31  6382.33
110.31  6591.37
111.31  6627.1
112.31  6560.09
113.31  6530.9
114.31  6622.561
115.31  6907.424
116.31  6520.12
117.31  6807.48
118.31  7150.57
119.31  6886.831
120.31  6837.56
121.31  6566.47
122.31  7230.94
123.31  7308.3
124.31  7191.49
125.31  6844.6
126.31  7136.54
127.31  7066.08
128.31  7243.46
129.31  7313.26
130.31  7292.4
131.31  7468.78
132.31  7340.22
133.31  7316.01
134.31  7155.631
135.31  7697.72
136.31  8000.62
137.31  7616.19
138.31  7356.82
139.31  7795.28
140.31  7919.88
141.31  7644.75
142.31  8138.74
143.31  8219.33
144.31  8158.63
145.31  8192.07
146.31  8103.17
147.31  8157.16
148.31  8337.44
149.31  8576.363
150.31  8779.86
151.31  8627.84
152.31  8395
153.31  8130.03
154.31  8308.7
155.31  8460.96
156.31  8692.1
157.31  8436.89
158.31  8957.84
159.31  8887.13
160.31  8766.93
161.31  8696.38
162.31  9283.55
163.31  9548.21
164.31  9312.96
165.31  9028.36
166.31  9350.42
167.31  9526.33
168.31  9650.95
169.31  9208.39
170.31  9010.48
171.31  9359.96
172.31  9511.31
173.31  9122.46
174.31  9299.05
175.31  9800.75
176.31  9955
177.31  9587.87
178.31  9660.41
179.31  9672.21
180.31  10306.576
181.31  10249.745
182.31  10098.791
183.31  10117.334
184.31  10588.874
185.31  10612.407
186.31  10454.951
187.31  10741.086
188.31  10562.217
189.31  10137.964
190.31  10373.857
191.31  10877.377
192.31  10470.658
193.31  10708.083
194.31  10538.292
195.31  10771.435
196.31  10992.005
197.31  11321.757
198.31  11406.593
199.31  11548.71
200.31  11548.625
201.31  11246.05
202.31  11446.269
203.31  11070.217
204.31  11593.371
205.31  11650.569
206.31  11718.998
207.31  11878.037
208.31  12041.979
209.31  11724.342
210.31  12109.554
211.31  11887.254
212.31  12043.129
213.31  12247.445
214.31  12438.931
215.31  12372.226
216.31  12221.839
217.31  12287.256
218.31  12319.389
219.31  12614.879
220.31  12084.386
221.31  13109.736
222.31  12792.217
223.31  12490.509
224.31  12552.281
225.31  12982.047
226.31  13100.921
227.31  12818.804
228.31  13210.124
229.31  13352.886
230.31  12977
231.31  13239.26
232.31  12910.69
233.31  13370.78
234.31  13921.243
235.31  13967.213
236.31  13864.853
237.31  14160.483
238.31  13800.219
239.31  13880.855
240.31  14184.49
241.31  14313.923
242.31  14543.585
243.31  14786.3
244.31  14797.774
245.31  14302.467
246.31  14758.569
247.31  14186.18
248.31  14376.246
249.31  15061.636
250.31  15552.546
251.31  15187.586
252.31  15034.391
253.31  16146.192
254.31  15358.474
255.31  16074.157
256.31  15865.951
257.31  15927.71
258.31  15830.32
259.31  16454.34
260.31  16563.074
261.31  16226.652
262.31  16828.549
263.31  16938.365
264.31  16962.689
265.31  16425.936
266.31  16307.592
267.31  16342.275
268.31  16899.892
269.31  16884.698
270.31  17038.484
271.31  16565.441
272.31  16548.443
273.31  16721.712
274.31  16980.388
275.31  17163.716
276.31  16668.22
277.31  16454.593
278.31  17259.97
279.31  17016.523
280.31  16602.925
281.31  16953.656
282.31  17543.802
283.31  17196.614
284.31  17482.177
285.31  17689.538
286.31  17487.445
287.31  17380.157
288.31  17370.669
289.31  17748.417
290.31  18167.075
291.31  17884.821
292.31  18500.001
293.31  18983.425
294.31  17689.199
295.31  17969.506
296.31  18618.879
297.31  18472.403
298.31  18433.244
299.31  18756.221
300.31  19419.159
301.31  19658.568
302.31  19342.283
303.31  19835.936
304.31  19579.912
305.31  19146.266
306.31  19067.071
307.31  19191.573
308.31  19135.4
309.31  19948.384
310.31  19884.789
311.31  20117.576
312.31  20017.327
313.31  20893.842
314.31  20248.284
315.31  20818.551
316.31  20144.289
317.31  20461.971
318.31  20921.203
319.31  21469.414
320.31  21360.637
321.31  21214.21
322.31  21669.939
323.31  21808.612
324.31  21083.035
325.31  22615.477
326.31  22851.908
327.31  21685.35
328.31  22126.363
329.31  22700.469
330.31  22467.156
331.31  22124.391
332.31  21704.605
333.31  23251.11
334.31  22987.767
335.31  22352.11
336.31  21914.684
337.31  21961.841
338.31  22214.749
339.31  22653.205
340.31  22616.541
341.31  22448.795
342.31  22248.906
343.31  22906.322
344.31  22924.57
345.31  22799.993
346.31  23230.744
347.31  23205.421
348.31  24055.514
349.31  24409.324
350.31  23996.542
351.31  24756.659
352.31  23829.852
353.31  23966.819
354.31  24190.748
355.31  24009.413
356.31  24567.867
357.31  25005.777
358.31  25595.095
359.31  25379.435
360.31  25375.705
361.31  26007.995
362.31  25149.143
363.31  24940.205
364.31  24668.062
365.31  24526.458
366.31  24502.018
367.31  25230.478
368.31  24825.263
369.31  24957.786
370.31  25432.189
371.31  26467.962
372.31  26609.756
373.31  26349.061
374.31  26428.23
375.31  27596.651
376.31  28978.608
377.31  29219.592
378.31  30495.326
379.31  30562.508
380.31  30111.201
381.31  29642.167
382.31  29805.565
383.31  29676.247
384.31  28385.724
385.31  26744.553
386.31  25336.206
387.31  23769.414
388.31  22611.819
389.31  21748.054
390.31  21661.595
391.31  20652.135
392.31  20181.036
393.31  20909.539
394.31  20375.491
395.31  19925.921
396.31  20238.665
397.31  20560.529
398.31  20698.406
399.31  20391.528
400.31  20888.09
401.31  20794.015
402.31  20055.959
403.31  20491.844
404.31  19539.32
405.31  19262.41
406.31  20429.059
407.31  19827.816
408.31  20788.986
409.31  21829.954
410.31  21894.258
411.31  23060.08
412.31  23686.571
413.31  24188.206
414.31  24399.269
415.31  23902.802
416.31  23009.984
417.31  22484.921
418.31  21878.582
419.31  21887.651
420.31  21222.504
421.31  20337.941
422.31  20028.411
423.31  19832.955
424.31  19936.919
425.31  19351.773
426.31  18564.745
427.31  19096.757
428.31  19506.331
429.31  19377.384
430.31  19129.454
431.31  19318.351
432.31  18875.315
433.31  19090.889
434.31  19354.269
435.31  19473.04
436.31  19762.711
437.31  19660.197
438.31  19646.168
439.31  19918.148
440.31  19556.268
441.31  20016.72
442.31  20538.669
443.31  20656.497
444.31  19852.395
445.31  19494.113
446.31  20772.607
447.31  20481.016
448.31  20184.433
449.31  20537.508
450.31  21387.761
451.31  20514.288
452.31  20441.381
453.31  20872.874
454.31  20511.401
455.31  20346.204
456.31  20746.869
457.31  21308.204
458.31  21035.836
459.31  20801.734
460.31  20687.396
461.31  21232.192
462.31  21548.902
463.31  22153.638
464.31  21593.761
465.31  21528.648
466.31  21471.299
467.31  21787.996
468.31  21425.949
469.31  21450.468
470.31  21266.008
471.31  21642.225
472.31  21734.71
473.31  21528.099
474.31  21970.189
475.31  22058.161
476.31  22891.988
477.31  23028.46
478.31  23062.669
479.31  22561.115
480.31  22706.099
481.31  22302.828
482.31  22204.427
483.31  22426.717
484.31  23212.791
485.31  23579.756
486.31  23867.054
487.31  22870.373
488.31  23328.626
489.31  23757.947
490.31  25764.106
491.31  27504.932
492.31  26688.278
493.31  25536.597
494.31  23184.334
495.31  23131.922
496.31  23112.284
497.31  22751.201
498.31  22500.823
499.31  22690.847
500.31  22144.658
501.31  22337.603
502.31  21205.498
503.31  21013.158
504.31  21553.424
505.31  21727.946
506.31  22662.661
507.31  23960.092
508.31  27051.55
509.31  30669.435
510.31  34343.439
511.31  38687.826
512.31  36815.829
513.31  31709.035
514.31  26705.134
515.31  25634.805
516.31  23217.065
517.31  21200.365
518.31  20976.686
519.31  20411.421
520.31  18852
521.31  18219.987
522.31  16998.259
523.31  17043.368
524.31  16696.7
525.31  16515.37
526.31  16554.768
527.31  16941.737
528.31  16508.993
529.31  16945.34
530.31  16671.353
531.31  16957.915
532.31  16923.662
533.31  16549.072
534.31  16791.597
535.31  16555.655
536.31  16724.533
537.31  16789.544
538.31  17080.627
539.31  16403.359
540.31  17192.23
541.31  16869.327
542.31  16699.919
543.31  16568.376
544.31  17123.689
545.31  17244.605
546.31  17668.736
547.31  17275.11
548.31  17430.639
549.31  17926.394
550.31  17173.68
551.31  17535.083
552.31  17842.991
553.31  18180.026
554.31  17170.309
555.31  17411.777
556.31  17379.016
557.31  17573.348
558.31  17769.988
559.31  17187.855
560.31  17378.698
561.31  17770.917
562.31  18183.969
563.31  17951.322
564.31  17291.763
565.31  18224.924
566.31  18292.069
567.31  18295.579
568.31  18359.197
569.31  18570.444
570.31  17807.416
571.31  18049.743
572.31  17917.935
573.31  17720.833
574.31  17566.231
575.31  17716.721
576.31  17972.107
577.31  18441.606
578.31  18645.228
579.31  19045.343
580.31  18868.058
581.31  17969.87
582.31  18857.184
583.31  18618.547
584.31  17966.663
585.31  18737.007
586.31  19204.847
587.31  18508.141
588.31  18344.237
589.31  19492.428
590.31  19038.051
591.31  19000.895
592.31  18665.2
593.31  19080.953
594.31  19388.703
595.31  19082.153
596.31  19104.854
597.31  19579.358
598.31  19189.201
599.31  19111.476
600.31  20169.523
601.31  20193.166
602.31  19420.569
603.31  19358.982
604.31  19802.651
605.31  19456.217
606.31  19569.635
607.31  19651.64
608.31  19580.639
609.31  19097.112
610.31  19814.642
611.31  19060.427
612.31  19658.85
613.31  19438.703
614.31  19506.087
615.31  20352.041
616.31  20258.813
617.31  19902.125
618.31  20197.843
619.31  19948.934
620.31  20735.649
621.31  20912.923
622.31  20116.092
623.31  20767.816
624.31  20701.466
625.31  21100.934
626.31  20392.224
627.31  20087.218
628.31  20758.988
629.31  20700.683
630.31  19968.472
631.31  19943.984
632.31  20200.254
633.31  20576.663
634.31  21307.567
635.31  20877.371
636.31  20938.219
637.31  20459.062
638.31  20694.142
639.31  21371.133
640.31  20916.934
641.31  21371.686
642.31  21488.648
643.31  21559.177
644.31  21059.233
645.31  21784.281
646.31  21484.632
647.31  21481.024
648.31  21788.21
649.31  20556.47
650.31  22179.881
651.31  21676.932
652.31  21374.386
653.31  21181.962
654.31  20620.638
655.31  21059.626
656.31  21259.512
657.31  21666.079
658.31  21651.632
659.31  22033.636
660.31  21575.262
661.31  21694.352
662.31  21833.147
663.31  22165.52
664.31  21571.898
665.31  21176.663
666.31  21072.562
667.31  22475.613
668.31  22132.163
669.31  22061.716
670.31  22005.525
671.31  21246.495
672.31  21987.045
673.31  22428.38
674.31  22822.413
675.31  22066.874
676.31  22026.946
677.31  22872.414
678.31  22729.558
679.31  23223.536
680.31  22391.672
681.31  22421.03
682.31  22929.799
683.31  22384.703
684.31  22077.123
685.31  22403.522
686.31  22514.848
687.31  23086.87
688.31  23008.594
689.31  22896.094
690.31  23007.029
691.31  22615.195
692.31  23367.033
693.31  22998.95
694.31  22688.467
695.31  22773.871
696.31  23545.885
697.31  23628.366
698.31  23343.691
699.31  23217.307
700.31  23808.044
701.31  23648.631
702.31  24439.37
703.31  23627.578
704.31  23702.375
705.31  23258.703
706.31  23112.999
707.31  23836.088
708.31  23444.222
709.31  23567.595
710.31  23642.275
711.31  24386.163
712.31  24130.708
713.31  24212.737
714.31  24167.262
715.31  23823.415
716.31  24382.491
717.31  24021.466
718.31  23384.242
719.31  23702.326
720.31  24056.241
721.31  23758.067
722.31  24084.988
723.31  24803.119
724.31  24645.121
725.31  23377.472
726.31  24306.357
727.31  24435.529
728.31  24121.245
729.31  24918.726
730.31  24583.256
731.31  24420.059
732.31  24311.698
733.31  24748.974
734.31  25566.548
735.31  25526.114
736.31  24905.542
737.31  24829.984
738.31  25091.851
739.31  25664.033
740.31  25327.271
741.31  24692.787
742.31  25268.432
743.31  24671.751
744.31  24852.233
745.31  25267.293
746.31  24880.018
747.31  24747.573
748.31  25228.952
749.31  25814.786
750.31  25895.734
751.31  25757.59
752.31  26180.765
753.31  25210.747
754.31  25445.237
755.31  25315.741
756.31  26283.986
757.31  25907.269
758.31  26047.565
759.31  25598.081
760.31  26280.117
761.31  26336.6
762.31  26261.815
763.31  25661.764
764.31  26576.728
765.31  26839.659
766.31  26610.949
767.31  25707.336
768.31  25619.766
769.31  26379.335
770.31  26422.762
771.31  26467.348
772.31  26558.143
773.31  26455.646
774.31  26690.974
775.31  26434.512
776.31  27152.573
777.31  26818.083
778.31  26501.726
779.31  26982.351
780.31  26144.096
781.31  26479.393
782.31  26034.486
783.31  26842.888
784.31  26663.777
785.31  27072.271
786.31  27059.151
787.31  26734.532
788.31  26699.023
789.31  26568.611
790.31  26710.916
791.31  26542.42
792.31  27265.072
793.31  27335.608
794.31  27702.914
795.31  27683.704
796.31  27068.549
797.31  27091.369
798.31  27379.794
799.31  26988.561
800.31  27461.764
801.31  27020.176
802.31  26866.741
803.31  26996.57
804.31  27922.071
805.31  27555.408
806.31  27155.582
807.31  27311.264
808.31  27241.975
809.31  26755.668
810.31  27852.951
811.31  28559.052
812.31  28169.643
813.31  28230.927
814.31  27433.306
815.31  28712.158
816.31  28511.513
817.31  27897.646
818.31  27449.992
819.31  28090.923
820.31  29185.087
821.31  28534.343
822.31  27572.958
823.31  28438.141
824.31  28807.754
825.31  27844.501
826.31  27936.201
827.31  28253.96
828.31  28942.635
829.31  29172.994
830.31  28899.419
831.31  28606.957
832.31  28377.703
833.31  28996.968
834.31  28662.704
835.31  28907.396
836.31  29214.976
837.31  28830.637
838.31  29144.225
839.31  28818.831
840.31  29762.867
841.31  29505.932
842.31  29343.669
843.31  29262.068
844.31  29169.498
845.31  29879.54
846.31  29928.144
847.31  29234.914
848.31  29519.013
849.31  30135.543
850.31  29363.45
851.31  29559.941
852.31  29510.75
853.31  29165.904
854.31  29895.985
855.31  30169.559
856.31  30154.119
857.31  29577.089
858.31  30027.448
859.31  30603.75
860.31  29683.333
861.31  30106.362
862.31  29615.322
863.31  30689.119
864.31  30411.243
865.31  30540.917
866.31  30695.842
867.31  31028.173
868.31  31058.734
869.31  30755.557
870.31  31358.759
871.31  31571.759
872.31  31433.742
873.31  31397.272
874.31  31602.361
875.31  30410.132
876.31  30738.131
877.31  30736.155
878.31  30958.797
879.31  31573.331
880.31  31206.427
881.31  31389.043
882.31  31267.199
883.31  31148.308
884.31  31836.561
885.31  31367.203
886.31  31654.104
887.31  32633.084
888.31  31909.592
889.31  32363.633
890.31  32440.115
891.31  32279.298
892.31  33071.221
893.31  32184.421
894.31  31913.498
895.31  32992.264
896.31  33212.922
897.31  32872.539
898.31  32471.504
899.31  32645.81
900.31  33161.812
901.31  32493.011
902.31  33863.367
903.31  34184.458
904.31  34811.606
905.31  35967.942
906.31  35593.13
907.31  36507.452
908.31  35497.774
909.31  34116.895
910.31  32784.168
911.31  32298.607
912.31  32225.891
913.31  32127.337
914.31  31363.119
915.31  32852.185
916.31  34342.782
917.31  35576.702
918.31  37797.403
919.31  40063.034
920.31  42319.666
921.31  39901.574
922.31  36931.37
923.31  33958.836
924.31  31919.593
925.31  30206.316
926.31  29826.556
927.31  28983.231
928.31  29510.794
929.31  28920.844
930.31  28986.529
931.31  29079.789
932.31  28879.922
933.31  28072.706
934.31  27377.034
935.31  27357.929
936.31  27290.907
937.31  27293.903
938.31  28331.269
939.31  28557.667
940.31  28520.067
941.31  29605.387
942.31  28920.768
943.31  29310.324
944.31  28333.386
945.31  26259.49
946.31  23900.707
947.31  23117.986
948.31  22569.786
949.31  23275.321
950.31  22673.735
951.31  22211.826
952.31  22540.714
953.31  27058.341
954.31  52536.624
955.31  121078.49
956.31  96746.146
957.31  28179.481
958.31  19390.496
959.31  18608.378
960.31  18111.013
961.31  18367.497
962.31  18084.498
963.31  17848.525
964.31  18309.852
965.31  18455.708
966.31  18314.475
967.31  17483.754
968.31  17594.839
969.31  18118.863
970.31  18104.08
971.31  17915.15
972.31  17904.618
973.31  18300.115
974.31  19037.23
975.31  18352.063
976.31  17631.283
977.31  18171.778
978.31  17537.142
979.31  18703.734
980.31  18462.727
981.31  17412.229
982.31  16920.044
983.31  16988.826
984.31  16777.327
985.31  17082.895
986.31  17495.241
987.31  16549.575
988.31  17718.478
989.31  17292.411
990.31  17273.413
991.31  17795.029
992.31  18639.122
993.31  18965.97
994.31  18199.557
995.31  18638.792
996.31  18882.957
997.31  19402.78
998.31  19301.326
999.31  19079.979
1000.31  19756.853
1001.31  20506.717
1002.31  20219.422
1003.31  19712.652
1004.31  19672.773
1005.31  19899.704
1006.31  21630.977
1007.31  22372.144
1008.31  21862.97
1009.31  20879.902
1010.31  20175.255
1011.31  21138.126
1012.31  23579.082
1013.31  25062.84
1014.31  23658.494
1015.31  19072.232
1016.31  16228.454
1017.31  15687.208
1018.31  16764.678
1019.31  21795.616
1020.31  36228.078
1021.31  45140.079
1022.31  29295.286
1023.31  17479.536
1024.31  16323.91
1025.31  25335.52
1026.31  72817.072
1027.31  80247.305
1028.31  17010.903
1029.31  5293.7
1030.31  3509.8
1031.31  3170.51
1032.31  3109.41
1033.31  2695.73
1034.31  2588.4
1035.31  2566.78
1036.31  2635.32
1037.31  2412
1038.31  2411.82
1039.31  2730.81
1040.31  2482.46
1041.31  2647.59
1042.31  2585.66
1043.31  2677.54
1044.31  2585.35
1045.31  2562.19
1046.31  2949.69
1047.31  2738.63
1048.31  2664.1
1049.31  2547.99
1050.31  2561.031
1051.31  2452.99
1052.31  2502.34
1053.31  2919.59
1054.31  3015.04
1055.31  2992.96
1056.31  2587.18
1057.31  2533.529
1058.31  2579.48
1059.31  2586.23
1060.31  2626.17
1061.31  2744.24
1062.31  2576.54
1063.31  2722.09
1064.31  2453.52
1065.31  2554.99
1066.31  2568.49
1067.31  2783.4
1068.31  2753.34
1069.31  2787.08
1070.31  2737.62
1071.31  2545.52
1072.31  2727.24
1073.31  2595.32
1074.31  2870.059
1075.31  2689.32
1076.31  2530.07
1077.31  2586.82
1078.31  2630.79
1079.31  2662.89
1080.31  2876.99
1081.31  2577.39
1082.31  2731.42
1083.31  2488.59
1084.31  2662.63
1085.31  3235.54
1086.31  2783.75
1087.31  2969.37
1088.31  2817.93
1089.31  2843.79
1090.31  2820.75
1091.31  2881.93
1092.31  2757.64
1093.31  2947.48
1094.31  2910.83
1095.31  2967.14
1096.31  3081.12
1097.31  2797.024
1098.31  2797.95
1099.31  2613.52
1100.31  2644.08
1101.31  2606.92
1102.31  2730.89
1103.31  2696.96
1104.31  2794.506
1105.31  2901.492
1106.31  2814.8
1107.31  2808.37
1108.31  2918.12
1109.31  3136.65
1110.31  2997.26
1111.31  2929.05
1112.31  2837.08
1113.31  2782.97
1114.31  2627.31
1115.31  2884.11
1116.31  2808.614
1117.31  3118.06
1118.31  2909.43
1119.31  3038.93
1120.31  2770.366
1121.31  2888.75
1122.31  2826.88
1123.31  2903.65
1124.31  2867.66
1125.31  2964.89
1126.31  2862.98
1127.31  3015.97
1128.31  3014
1129.31  3062.53
1130.31  3079.24
1131.31  2824.99
1132.31  3073.18
1133.31  3004.05
1134.31  2622.99
1135.31  2781.41
1136.31  2960.26
1137.31  2776.11
1138.31  2995.82
1139.31  3025.62
1140.31  3359.421
1141.31  2968.54
1142.31  3003.79
1143.31  2995.89
1144.31  3127.963
1145.31  2884.08
1146.31  2876.58
1147.31  2983.63
1148.31  3157.12
1149.31  3280.76
1150.31  3076
1151.31  3025.53
1152.31  3047.35
1153.31  3211.38
1154.31  2959.33
1155.31  2836.94
1156.31  3003.182
1157.31  3121.14
1158.31  3026.04
1159.31  3182.2
1160.31  3390.56
1161.31  3137.16
1162.31  3298.81
1163.31  3414.32
1164.31  3210.46
1165.31  3623.02
1166.31  3882.37
1167.31  3687.65
1168.31  3155.15
1169.31  3260.81
1170.31  3145.92
1171.31  3254.2
1172.31  3234.87
1173.31  3125.36
1174.31  3356.582
1175.31  3337.53
1176.31  3295.06
1177.31  3439.38
1178.31  3255.02
1179.31  3038.13
1180.31  3051.61
1181.31  3229.46
1182.31  3445.56
1183.31  3329.17
1184.31  3252.24
1185.31  3167.21
1186.31  2957.6
1187.31  3358.31
1188.31  3155.7
1189.31  3128.77
1190.31  3215.56
1191.31  3384.705
1192.31  3079.968
1193.31  3189.61
1194.31  3103.33
1195.31  3218.168
1196.31  3942.69
1197.31  4508.38
1198.31  4139.16
1199.31  5098.33
1200.31  8339.788
1201.31  7754.62
1202.31  3805.66
1203.31  2990.95
1204.31  2972.67
1205.31  2853.32
1206.31  2980.62
1207.31  2858.06
1208.31  3038.96
1209.31  2821.49
1210.31  3149.94
1211.31  3053.637
1212.31  3224.31
1213.31  3158.69
1214.31  3107.09
1215.31  3303.78
1216.31  3109.99
1217.31  3248.53
1218.31  3277.24
1219.31  3070.01
1220.31  3281.22
1221.31  3060.835
1222.31  2942.26
1223.31  2971.5
1224.31  3160.23
1225.31  2956.96
1226.31  3365.43
1227.31  2890.51
1228.31  2837.8
1229.31  3148.77
1230.31  3052.39
1231.31  3121.76
1232.31  3051.37
1233.31  2913.18
1234.31  3101.8
1235.31  2847.07
1236.31  2969.4
1237.31  3014.17
1238.31  2807.91
1239.31  2806.805
1240.31  3003.73
1241.31  3729.4
1242.31  3944.92
1243.31  4296.94
1244.31  4618.7
1245.31  3183.41
1246.31  2971.56
1247.31  2842.41
1248.31  3057.8
1249.31  2804.74
1250.31  2888.21
1251.31  2893.5
1252.31  2900.79
1253.31  2899.59
1254.31  2732.131
1255.31  3058.94
1256.31  2924.878
1257.31  3004.771
1258.31  3116.18
1259.31  2778.33
1260.31  2831.96
1261.31  2947.92
1262.31  3073.78
1263.31  2946.49
1264.31  2835.7
1265.31  2736.77
1266.31  2863.98
1267.31  2775.56
1268.31  2618.17
1269.31  2898.99
1270.31  2950.29
1271.31  2875.02
1272.31  3154.48
1273.31  2842.64
1274.31  3008.14
1275.31  3000.14
1276.31  3068.06
1277.31  3010.72
1278.31  3172.47
1279.31  2893.14
1280.31  2969.19
1281.31  2730.16
1282.31  2894.67
1283.31  2964.52
1284.31  2776.49
1285.31  2703.71
1286.31  2952.58
1287.31  3071.19
1288.31  2853.71
1289.31  2886.41
1290.31  3040.841
1291.31  2982.02
1292.31  2735.14
1293.31  2909.66
1294.31  3118.03
1295.31  2974.59
1296.31  2798.67
1297.31  2950.66
1298.31  2827.49
1299.31  2895.48
1300.31  2939.77
1301.31  3019.44
1302.31  2830.92
1303.31  3210.98
1304.31  2932.31
1305.31  3275.29
1306.31  3032.29
1307.31  3155.17
1308.31  2587.48
1309.31  2942.69
1310.31  3151.37
1311.31  3400.67
1312.31  2906.48
1313.31  3018.67
1314.31  3137.614
1315.31  3262.05
1316.31  3067.89
1317.31  3061.891
1318.31  3185.6
1319.31  3034.53
1320.31  3215.89
1321.31  2965.93
1322.31  3390.31
1323.31  3214.676
1324.31  2952.71
1325.31  3206.57
1326.31  3157.15
1327.31  3391.58
1328.31  2875.45
1329.31  3290.63
1330.31  3273.919
1331.31  3237.36
1332.31  3181.68
1333.31  3105.65
1334.31  3230.5
1335.31  3366.05
1336.31  3347.52
1337.31  3142.86
1338.31  2964.65
1339.31  3085.95
1340.31  2980.55
1341.31  3218.88
1342.31  3063.24
1343.31  3009.34
1344.31  3213.15
1345.31  3188.56
1346.31  3163.74
1347.31  3252.53
1348.31  3160.2
1349.31  3211.09
1350.31  3402.24
1351.31  3325.32
1352.31  3363.15
1353.31  3286.17
1354.31  3316.11
1355.31  3297.61
1356.31  3627.14
1357.31  3212.53
1358.31  2947.58
1359.31  3275.53
1360.31  3219.39
1361.31  3465.99
1362.31  3561.1
1363.31  3338.88
1364.31  3368.68
1365.31  3456.04
1366.31  3212.95
1367.31  3528.43
1368.31  3344.39
1369.31  3524.033
1370.31  3537.14
1371.31  3511.56
1372.31  3538.27
1373.31  3591.132
1374.31  3567.67
1375.31  3560.97
1376.31  3562.71
1377.31  3445.22
1378.31  3372.8
1379.31  3780.79
1380.31  3440.14
1381.31  3396.94
1382.31  3563.46
1383.31  3488.14
1384.31  3423.49
1385.31  3449.566
1386.31  3429.75
1387.31  3326.26
1388.31  3326.47
1389.31  3391.12
1390.31  3335.88
1391.31  3387.56
1392.31  3565.51
1393.31  3366.57
1394.31  3497.6
1395.31  3905.73
1396.31  4032.1
1397.31  3856.8
1398.31  3732.93
1399.31  3896.36
1400.31  4024.23
1401.31  3682.94
1402.31  3833.16
1403.31  3684.83
1404.31  3612.64
1405.31  3568.12
1406.31  3562.97
1407.31  4123.02
1408.31  3770.8
1409.31  3723.46
1410.31  3744.62
1411.31  3695.05
1412.31  3382.05
1413.31  3456.85
1414.31  3451.781
1415.31  3289.68
1416.31  3064.34
1417.31  3534.552
1418.31  3612.21
1419.31  3801.7
1420.31  4316.38
1421.31  4989.42
1422.31  6384.58
1423.31  7581.4
1424.31  6566.41
1425.31  4670.39
1426.31  3523.47
1427.31  3156.47
1428.31  2900.147
1429.31  2740.63
1430.31  3096.55
1431.31  3416.25
1432.31  3485.02
1433.31  3431.81
1434.31  3585.51
1435.31  3820.79
1436.31  3315.57
1437.31  2911.97
1438.31  2644.77
1439.31  2530.58
1440.31  2607.67
1441.31  2850.6
1442.31  2868.939
1443.31  2969.3
1444.31  3043.36
1445.31  3579.47
1446.31  4976.91
1447.31  8064.24
1448.31  12662.052
1449.31  9510.251
1450.31  3783.16
1451.31  1755.18
1452.31  1377.72
1453.31  1060.06
1454.31  854.184
1455.31  888.2422
1456.31  955.9136
1457.31  881.721
1458.31  838.225
1459.31  808.131
1460.31  954.711
1461.31  1332.77
1462.31  2778.01
1463.31  4275.93
1464.31  3706.15
1465.31  2157.57
1466.31  1405.02
1467.31  975.638
1468.31  597.812
1469.31  450.0735
1470.31  275.243
1471.31  345.497
1472.31  280.748
1473.31  256.08
1474.31  220.908
1475.31  303.39
1476.31  472.412
1477.31  977.249
1478.31  1364.87
1479.31  1364.95
1480.31  1515
1481.31  1215.58
1482.31  519.79
1483.31  133.0948
1484.31  16.03974
1485.31  9.7865
1486.31  0
1487.31  6.02258
1488.31  9.04552
1489.31  4.9319
1490.31  0
1491.31  0

# Group:                        50 W Al, after sputtering, and annealing, at x=0.4, z=10.0
#
# Region:                       Survey
# Spectrum ID:                  39
# Acquisition Date:             03/12/25 12:30:34 UTC
# Analysis Method:              XPS
# Analyzer:                     Analyzer Munich
# Analyzer Lens:                SmallArea:3.5kV
# Analyzer Slit:                5:7x20c\C:mesh
# Scan Mode:                    FixedAnalyzerTransmission
# Scan Variable:                Kinetic Energy
# Curves/Scan:                  1
# Values/Curve:                 1406
# Dwell Time:                   0.1
# Excitation Energy:            1486.31
# Kinetic Energy:               86.31
# Pass Energy:                  60
# Bias Voltage:                 100
# Detector Voltage:             1750
# Eff. Workfunction:            4.367
# Source:                       µFOCUS 450
# Comment:                      Annealed in O2 (1E-6 mbar) at 900K for 10 mins and 1100K for 20 mins

# Cycle: 0
#
# Number of Scans: 1

# Cycle: 0, Curve: 0
#
# Acquisition Date:             03/12/25 12:30:34 UTC
# ColumnLabels:                 energy counts/s
#
86.31  6034.78
87.31  6128.04
88.31  6179.27
89.31  6212.09
90.31  6181.71
91.31  6263.68
92.31  6210.643
93.31  6337.15
94.31  6075.83
95.31  6185.11
96.31  6719.94
97.31  6456.12
98.31  6609.23
99.31  6657.42
100.31  6517.92
101.31  6499.08
102.31  6528.75
103.31  6333.56
104.31  6065.25
105.31  6292.7
106.31  6852.64
107.31  6605.443
108.31  6845.24
109.31  6753.81
110.31  6893.08
111.31  6583.87
112.31  6559.32
113.31  6666.943
114.31  6703.58
115.31  6669.65
116.31  6752.81
117.31  6749.413
118.31  6785.1
119.31  7143.57
120.31  7448.54
121.31  7364.97
122.31  7562.97
123.31  7106.76
124.31  7187.79
125.31  7143.51
126.31  7341.06
127.31  7137.08
128.31  7408.27
129.31  7551.78
130.31  7227.79
131.31  7791.882
132.31  7388.3
133.31  7074.64
134.31  7084.28
135.31  7317.93
136.31  8006.13
137.31  7838.52
138.31  8102.18
139.31  8006.4
140.31  7782.32
141.31  7977.53
142.31  8114.57
143.31  8323.41
144.31  8033.1
145.31  8345.67
146.31  8301.92
147.31  8345.39
148.31  8307.83
149.31  8165.64
150.31  8314.71
151.31  8522.7
152.31  8660.36
153.31  8646.576
154.31  8710.45
155.31  8786.07
156.31  8304.99
157.31  8697.28
158.31  8710.3
159.31  9353.29
160.31  9290.86
161.31  8895.553
162.31  9134.04
163.31  8964.29
164.31  9036.26
165.31  9497.61
166.31  9138.11
167.31  9251.75
168.31  9361.81
169.31  9834.789
170.31  9849.37
171.31  9397.21
172.31  9553.75
173.31  10056.072
174.31  9925.686
175.31  10249.221
176.31  9674.7
177.31  9821.03
178.31  9924.81
179.31  9910.012
180.31  9939.079
181.31  9885.32
182.31  10397.963
183.31  10237.525
184.31  10578.222
185.31  10933.943
186.31  10639.566
187.31  10605.144
188.31  10480.937
189.31  10573.419
190.31  10583.172
191.31  10821.104
192.31  10580.479
193.31  10503.222
194.31  11002.817
195.31  10912.83
196.31  11111.622
197.31  11115.703
198.31  11461.567
199.31  11351.912
200.31  11617.953
201.31  11729.24
202.31  11995.682
203.31  11727.505
204.31  11658.139
205.31  12034.247
206.31  11777.494
207.31  11221.506
208.31  11618.946
209.31  11943.633
210.31  12668.568
211.31  12406.791
212.31  12363.587
213.31  12616.086
214.31  12560.308
215.31  12136.533
216.31  12458.097
217.31  12005.262
218.31  12229.973
219.31  12901.036
220.31  12687.968
221.31  12816.862
222.31  13244.433
223.31  12803.851
224.31  12826.33
225.31  13443.289
226.31  13145.076
227.31  13279.815
228.31  12991.478
229.31  13269.268
230.31  13455.003
231.31  13872.493
232.31  13533.193
233.31  13417.687
234.31  14124.47
235.31  13583.502
236.31  13820.81
237.31  13969.142
238.31  13978.9
239.31  13698.205
240.31  14998.507
241.31  14352.693
242.31  14524.792
243.31  14596.687
244.31  14311.491
245.31  14391.65
246.31  14490.776
247.31  14638.686
248.31  15334.961
249.31  15127.382
250.31  15109.244
251.31  14944.282
252.31  15372.682
253.31  15411.879
254.31  15742.928
255.31  15651.748
256.31  15644.031
257.31  15728.919
258.31  16063.894
259.31  15995.332
260.31  15994.073
261.31  15853.368
262.31  15883.194
263.31  16286.907
264.31  16360.756
265.31  15889.862
266.31  16375.155
267.31  16989.847
268.31  17360.151
269.31  16645.228
270.31  17077.849
271.31  16935.321
272.31  17181.383
273.31  17101.055
274.31  17070.68
275.31  17061.916
276.31  17320.894
277.31  17089.155
278.31  17159.525
279.31  17671.545
280.31  17903.912
281.31  17141.247
282.31  18570.137
283.31  17930
284.31  17982.556
285.31  17896.734
286.31  18201.148
287.31  19003.614
288.31  18459.378
289.31  18509.752
290.31  18469.192
291.31  19046.481
292.31  18811.413
293.31  18279.965
294.31  19075.342
295.31  18581.336
296.31  17973.823
297.31  18944.82
298.31  19164.156
299.31  19094.002
300.31  19409.441
301.31  19406.402
302.31  19320.959
303.31  19878
304.31  20204.701
305.31  20528.148
306.31  19801.808
307.31  20515.847
308.31  21244.39
309.31  20391.266
310.31  20435.814
311.31  20423.146
312.31  20225.652
313.31  20191.619
314.31  21051.974
315.31  21492.446
316.31  20706.081
317.31  21111.072
318.31  21348.002
319.31  20937.069
320.31  21424.531
321.31  21058.554
322.31  22463.412
323.31  22013.553
324.31  22299.535
325.31  22717.756
326.31  22384.429
327.31  22712.822
328.31  23392.315
329.31  23945.354
330.31  23305.523
331.31  22772.513
332.31  23634.992
333.31  22844.703
334.31  23054.177
335.31  22921.476
336.31  23196.087
337.31  23852.649
338.31  23518.577
339.31  23913.002
340.31  23615.95
341.31  23488.461
342.31  23373.116
343.31  24193.879
344.31  24098.091
345.31  23759.846
346.31  23739.466
347.31  24521.231
348.31  25393.552
349.31  25568.825
350.31  26063.674
351.31  26874.345
352.31  26072.284
353.31  26181.936
354.31  26103.092
355.31  25514.159
356.31  26519.78
357.31  26637.418
358.31  26080.406
359.31  26806.702
360.31  27609.744
361.31  26616.495
362.31  26997.294
363.31  26982.335
364.31  26359.669
365.31  26908.259
366.31  26769.411
367.31  27963.922
368.31  28567.692
369.31  28566.996
370.31  28604.098
371.31  29175.577
372.31  28931.025
373.31  29615.579
374.31  30886.996
375.31  31872.458
376.31  32950.899
377.31  34082.815
378.31  34376.441
379.31  35503.717
380.31  35903.647
381.31  35557.951
382.31  34922.309
383.31  34616.463
384.31  32676.648
385.31  30646.443
386.31  28048.865
387.31  26106.129
388.31  24981.13
389.31  24011.968
390.31  22199.934
391.31  22252.985
392.31  21863.628
393.31  21230.542
394.31  21368.003
395.31  22140.677
396.31  21878.077
397.31  22353.237
398.31  21906.968
399.31  21581.458
400.31  21684.752
401.31  22373.913
402.31  21194.435
403.31  21089.009
404.31  21147.748
405.31  21163.608
406.31  21577.746
407.31  21798.548
408.31  21610.9
409.31  22197.804
410.31  24345.208
411.31  25521.259
412.31  26409.052
413.31  27813.841
414.31  26848.004
415.31  26257.907
416.31  25183.931
417.31  24048.923
418.31  23814.822
419.31  23477.727
420.31  22899.731
421.31  21947.879
422.31  20745.545
423.31  20811.498
424.31  20297.619
425.31  20206.627
426.31  19867.96
427.31  19996.789
428.31  20336.271
429.31  19619.125
430.31  20709.775
431.31  19866.789
432.31  20389.83
433.31  19930.259
434.31  20449.616
435.31  19978.784
436.31  20000.28
437.31  20849.913
438.31  20638.367
439.31  20493.593
440.31  20692.661
441.31  21024.73
442.31  21341.757
443.31  20586.369
444.31  20956.466
445.31  21250.679
446.31  21439.568
447.31  20913.977
448.31  21620.234
449.31  22428.966
450.31  21116.056
451.31  21898.354
452.31  21690.101
453.31  21402.076
454.31  21316.119
455.31  21276.193
456.31  21750.536
457.31  21256.674
458.31  21349.178
459.31  21525.477
460.31  22040.285
461.31  22314.385
462.31  22884.865
463.31  22794.033
464.31  22789.048
465.31  22399.722
466.31  22172.516
467.31  22296.901
468.31  22576.265
469.31  22576.654
470.31  22404.991
471.31  21841.775
472.31  22762.659
473.31  22333.197
474.31  23131.101
475.31  23814.223
476.31  23524.178
477.31  23559.772
478.31  24164.406
479.31  24251.285
480.31  23934.526
481.31  22971.474
482.31  22404.913
483.31  23895.158
484.31  24069.239
485.31  23535.183
486.31  24305.996
487.31  24411.048
488.31  24109.325
489.31  25149.773
490.31  26904.178
491.31  28446.862
492.31  28486.11
493.31  26763.995
494.31  25679.196
495.31  24840.977
496.31  23977.82
497.31  24419.964
498.31  25367.585
499.31  24343.854
500.31  24352.839
501.31  23345.504
502.31  22823.902
503.31  23137.984
504.31  22997.835
505.31  24329.445
506.31  24901.136
507.31  27127.072
508.31  31185.032
509.31  34942.046
510.31  41288.51
511.31  46043.689
512.31  45846.499
513.31  36730.336
514.31  30515.899
515.31  27026.223
516.31  25346.382
517.31  24428.459
518.31  22683.949
519.31  21154.335
520.31  20344.134
521.31  19555.474
522.31  18915.443
523.31  18267.939
524.31  17084.078
525.31  17327.185
526.31  17147.68
527.31  17798.909
528.31  17750.204
529.31  17416.289
530.31  17534.847
531.31  17068.185
532.31  16909.341
533.31  16817.303
534.31  17249.628
535.31  17336.373
536.31  17619.485
537.31  17653.515
538.31  17607.012
539.31  17931.872
540.31  18055.038
541.31  17749.013
542.31  17690.775
543.31  17703.562
544.31  17603.915
545.31  17930.161
546.31  17431.143
547.31  17915.917
548.31  17809.69
549.31  18241.908
550.31  18310.642
551.31  17755.783
552.31  18316.408
553.31  17933.674
554.31  18345.285
555.31  17908.723
556.31  18687.57
557.31  18174.07
558.31  18369.073
559.31  18239.644
560.31  19172.723
561.31  18922.207
562.31  18411.437
563.31  18481.282
564.31  19219.889
565.31  19100.09
566.31  18443.004
567.31  18696.984
568.31  18622.439
569.31  18784.275
570.31  19093.634
571.31  19124.429
572.31  18928.889
573.31  18749.278
574.31  19016.251
575.31  19372.298
576.31  19008.361
577.31  19390.044
578.31  19017.15
579.31  19736.19
580.31  19065.288
581.31  19195.473
582.31  20070.649
583.31  19852.745
584.31  19787.349
585.31  19893.245
586.31  19441.556
587.31  19069.206
588.31  19516.093
589.31  19855.66
590.31  19842.546
591.31  19844.436
592.31  20247.696
593.31  20298.906
594.31  19716.91
595.31  19810.11
596.31  19368.339
597.31  19127.419
598.31  20066.528
599.31  20147.659
600.31  20019.354
601.31  20669.201
602.31  20624.467
603.31  20574.674
604.31  20336.806
605.31  20282.355
606.31  20385.845
607.31  20160.137
608.31  21057.222
609.31  20136.371
610.31  20305.33
611.31  21048.406
612.31  20768.338
613.31  20426.885
614.31  21116.081
615.31  21703.075
616.31  21515.548
617.31  20805.913
618.31  21404.08
619.31  21770.672
620.31  21390.797
621.31  21955.331
622.31  21406.338
623.31  21442.676
624.31  21230.753
625.31  21042.982
626.31  20986.717
627.31  20522.93
628.31  21799.625
629.31  21590.947
630.31  21615.794
631.31  21431.934
632.31  21638.244
633.31  21609.984
634.31  21580.507
635.31  21235.185
636.31  21265.912
637.31  21856.551
638.31  21090.467
639.31  21702.604
640.31  21866.334
641.31  21692.447
642.31  21630.219
643.31  22072.105
644.31  22058.727
645.31  21779.948
646.31  22118.213
647.31  21915.274
648.31  21812.858
649.31  22080.215
650.31  22828.701
651.31  22525.075
652.31  22869.595
653.31  22146.073
654.31  22362.447
655.31  22367.098
656.31  23181.947
657.31  22620.797
658.31  22097.887
659.31  22905.059
660.31  22508.441
661.31  22766.127
662.31  22871.983
663.31  23116.339
664.31  22615.707
665.31  22661.1
666.31  22754.491
667.31  22931.089
668.31  23161.807
669.31  22905.179
670.31  22748.623
671.31  22390.917
672.31  22632.613
673.31  24025.416
674.31  22942.906
675.31  22976.144
676.31  23093.695
677.31  22751.921
678.31  23709.509
679.31  23171.477
680.31  23091.524
681.31  23003.526
682.31  23075.371
683.31  23399.009
684.31  23970.839
685.31  23994.298
686.31  23778.469
687.31  23604.456
688.31  23641.452
689.31  23748.325
690.31  23810.368
691.31  24869.916
692.31  24555.667
693.31  24363.731
694.31  24156.71
695.31  24963.264
696.31  24109.518
697.31  24030.417
698.31  23606.509
699.31  24431.794
700.31  23960.409
701.31  24158.881
702.31  24123.026
703.31  24862.557
704.31  24073.996
705.31  24443.484
706.31  24797.521
707.31  24882.712
708.31  25371.118
709.31  24931.286
710.31  24880.354
711.31  24957.291
712.31  25104.111
713.31  25404.311
714.31  24985.775
715.31  25357.956
716.31  24668.506
717.31  24384.418
718.31  25080.024
719.31  25306.535
720.31  25662.848
721.31  25124.519
722.31  25398.834
723.31  25280.471
724.31  25585.549
725.31  25898.88
726.31  25045.787
727.31  24775.265
728.31  25700.845
729.31  25750.412
730.31  25934.57
731.31  25958.725
732.31  24980.47
733.31  25712.299
734.31  25445.626
735.31  25649.54
736.31  26102.1
737.31  25427.176
738.31  26411.712
739.31  26190.45
740.31  26409.875
741.31  25890.913
742.31  26281.197
743.31  26860.65
744.31  26304.731
745.31  26267.421
746.31  26066.195
747.31  26135.222
748.31  26470.701
749.31  26665.068
750.31  26014.749
751.31  26011.7
752.31  26476.927
753.31  27288.216
754.31  27408.016
755.31  27389.803
756.31  27198.399
757.31  26878.741
758.31  26582.211
759.31  27483.483
760.31  27152.96
761.31  27247.27
762.31  27354.927
763.31  27349.428
764.31  26494.453
765.31  27406.28
766.31  27148.907
767.31  26616.474
768.31  27393.931
769.31  27459.818
770.31  27396.171
771.31  27787.39
772.31  27955.194
773.31  27894.025
774.31  27879.741
775.31  27047.184
776.31  27650.011
777.31  28116.448
778.31  28034.281
779.31  27402.398
780.31  27686.991
781.31  27668.58
782.31  27112.854
783.31  27985.386
784.31  27903.919
785.31  27609.117
786.31  28039.553
787.31  28008.218
788.31  28481.444
789.31  28209.682
790.31  28032.226
791.31  28774.173
792.31  28193.813
793.31  28678.172
794.31  28353.498
795.31  28215.313
796.31  28504.71
797.31  27740.597
798.31  28568.917
799.31  28985.069
800.31  29322.578
801.31  28938.267
802.31  28494.697
803.31  29276.284
804.31  29079.769
805.31  29846.156
806.31  28580.509
807.31  28520.097
808.31  28734.047
[...]
1168.81  13408.872
1169.31  14217.609
1169.81  15432.136
1170.31  16330.827
1170.81  17512.427
1171.31  17804.531
1171.81  17471.071
1172.31  16513.256
1172.81  14944.619
1173.31  13309.568
1173.81  11801.473
1174.31  10505.905
1174.81  9685.3
1175.31  8791.74
1175.81  8438.84
1176.31  8003.76
1176.81  7701.36
1177.31  7396.52
1177.81  7108.22
1178.31  6849.66
1178.81  6803.39
1179.31  6826.94
1179.81  6822.13
1180.31  6646.03
1180.81  6575.18
1181.31  6363.63
1181.81  6190.98
1182.31  6303.11
1182.81  6368.35
1183.31  6415.23
1183.81  6364.79
1184.31  6277.6
1184.81  6168.24
1185.31  6194.75
1185.81  6297.77
1186.31  6219.11
1186.81  6132.46
1187.31  5973.69
1187.81  6080.33
1188.31  6180.78
1188.81  5925.994
1189.31  5990.54
1189.81  6027.891
1190.31  6190.63
1190.81  6112.71
1191.31  6007
1191.81  6021.63
1192.31  6068.565
1192.81  5873.49
1193.31  5954.49
1193.81  5915.81
1194.31  5953.87
1194.81  6073.47
1195.31  6300.23
1195.81  6123.59
1196.31  6088.06
1196.81  6085.45
1197.31  6003.84
1197.81  6110.76
1198.31  6062.32
1198.81  5924.93
1199.31  5989.43
1199.81  6059.013
1200.31  6130.4
1200.81  6182.382
1201.31  6160.6
1201.81  6199.22
1202.31  6180.632
1202.81  6028.4
1203.31  6157.96
1203.81  6162.11
1204.31  6283.06
1204.81  6196.06
1205.31  6081.54
1205.81  6116.32
1206.31  6101.27
1206.81  6019.26
1207.31  6158.73
1207.81  5963.46
1208.31  5996.17
1208.81  6111.63
1209.31  6128.28
1209.81  5999.8
1210.31  6194.24
1210.81  6222.06
1211.31  6076.91
1211.81  6128.16
1212.31  6108.05
1212.81  6074.44
1213.31  6206.58
1213.81  6156.24
1214.31  6118.38
1214.81  6091.23
1215.31  6196.33
1215.81  6144.08
1216.31  6206.68
1216.81  6177.84
1217.31  6056.95
1217.81  5966.91
1218.31  6168.08
1218.81  6330.09
1219.31  6109.57
1219.81  6148.02
1220.31  6242.69
1220.81  6226.55
1221.31  6170.91
1221.81  6269.54
1222.31  6305.35
1222.81  6328.73
1223.31  6202.65
1223.81  6101.79
1224.31  6231.96
1224.81  6350.06
1225.31  6288.13
1225.81  6254.15
1226.31  6335.18
1226.81  6353.41
1227.31  6348.8
1227.81  6323.73
1228.31  6091.073
1228.81  6226.33
1229.31  6243.9
1229.81  6338.96
1230.31  6313.59
1230.81  6190.88
1231.31  6287.86
1231.81  6189.55
1232.31  6388.8
1232.81  6235.21
1233.31  6325.3
1233.81  6383.02
1234.31  6292.96
1234.81  6326.83
1235.31  6245.65
1235.81  6351.26
1236.31  6461.96
1236.81  6304.59
1237.31  6400.44
1237.81  6336.75
1238.31  6393.29
1238.81  6462.2
1239.31  6357.93
1239.81  6437.76
1240.31  6533.26
1240.81  6471.84
1241.31  6344.69
1241.81  6515.89
1242.31  6608.72
1242.81  6458.445
1243.31  6438.46
1243.81  6722.21
1244.31  6521.67
1244.81  6572.08
1245.31  6469.24
1245.81  6419.74
1246.31  6478.041
1246.81  6618
1247.31  6512.15
1247.81  6668.63
1248.31  6669.79
1248.81  6614.28
1249.31  6551.75
1249.81  6536.13
1250.31  6542.77
1250.81  6544.45
1251.31  6530.822
1251.81  6533.24
1252.31  6549.46
1252.81  6591.42
1253.31  6652.98
1253.81  6666.13
1254.31  6682.55
1254.81  6648.63
1255.31  6628.44
1255.81  6638.08
1256.31  6724.87
1256.81  6673.43
1257.31  6546.38
1257.81  6706.48
1258.31  6614.588
1258.81  6747.75
1259.31  6670.75
1259.81  6744.44
1260.31  6724.66
1260.81  6815.87
1261.31  6768.42
1261.81  6704.34
1262.31  6639.2
1262.81  6857.68
1263.31  6762.59
1263.81  6714.44
1264.31  6756.5
1264.81  6795.94
1265.31  6821.26
1265.81  6731.09
1266.31  6870.79
1266.81  6898.62
1267.31  6836.93
1267.81  6790.34
1268.31  6725.03
1268.81  6725.99
1269.31  6828.01
1269.81  6908.96
1270.31  6926.76
1270.81  6755.77
1271.31  6788.86
1271.81  6918.8
1272.31  6897.35
1272.81  7012.05
1273.31  6990.99
1273.81  7018.91
1274.31  6781.26
1274.81  6975.63
1275.31  6963.34
1275.81  6781.79
1276.31  7036.431
1276.81  7069.91
1277.31  6998.849
1277.81  7154.07
1278.31  7179.46
1278.81  7028.6
1279.31  6943.16
1279.81  6953.67
1280.31  7098.18
1280.81  7066.83
1281.31  6989.31
1281.81  6999.5
1282.31  7019.76
1282.81  7104.829
1283.31  7165.31
1283.81  7274.71
1284.31  7017.75
1284.81  7148.81
1285.31  7047.23
1285.81  7092.33
1286.31  7109.86
1286.81  7111.97
1287.31  7132.34
1287.81  7271.35
1288.31  7166.03
1288.81  7303.17
1289.31  7242.3
1289.81  7289.46
1290.31  7050.64
1290.81  7044.89
1291.31  7098.98
1291.81  7223.96
1292.31  7327.15
1292.81  7349.13
1293.31  7135.45
1293.81  7145.61
1294.31  7043.31
1294.81  7269.57
1295.31  7226.69
1295.81  7364.82
1296.31  7258.02
1296.81  7107.67
1297.31  7161.01
1297.81  7246.051
1298.31  7416.59
1298.81  7353.28
1299.31  7315.66
1299.81  7444.13
1300.31  7380.03
1300.81  7568.12
1301.31  7326.81
1301.81  7323.01
1302.31  7501.79
1302.81  7624.09
1303.31  7568.11
1303.81  7382.46
1304.31  7411.77
1304.81  7603.17
1305.31  7558.73
1305.81  7501.3
1306.31  7481.47
1306.81  7557.03
1307.31  7631.61
1307.81  7478.92
1308.31  7554.31
1308.81  7494.84
1309.31  7567.9
1309.81  7659.93
1310.31  7625.39
1310.81  7457.23
1311.31  7766.79
1311.81  7682.54
1312.31  7645.46
1312.81  7767.33
1313.31  7619.57
1313.81  7761.92
1314.31  7739.7
1314.81  7784.38
1315.31  7733.71
1315.81  7655.91
1316.31  7675.55
1316.81  7733.62
1317.31  7714.81
1317.81  7803.96
1318.31  7834.687
1318.81  7738.99
1319.31  7789.19
1319.81  7875.45
1320.31  7701
1320.81  7552.89
1321.31  7750.23
1321.81  7909.19
1322.31  7864.45
1322.81  7728.88
1323.31  7795.35
1323.81  7779.33
1324.31  7745.75
1324.81  7792.45
1325.31  7916.34
1325.81  8080.59
1326.31  8017.45
1326.81  8160.78
1327.31  7790.06
1327.81  7992.455
1328.31  7939.33
1328.81  8066.27
1329.31  8047.32
1329.81  7856.51
1330.31  7937
1330.81  7944.28
1331.31  8118.55
1331.81  8129.73
1332.31  7988.24
1332.81  8141.53
1333.31  8106.07
1333.81  8158.11
1334.31  8235.81
1334.81  8115.07
1335.31  8191.64
1335.81  8029.44
1336.31  8097.6
1336.81  8032.89
1337.31  8169.74
1337.81  8232.32
1338.31  8117.67
1338.81  8093.35
1339.31  8107.72
1339.81  8031.06
1340.31  8116.38
1340.81  8309.33
1341.31  8195.01
1341.81  8327.9
1342.31  8216.89
1342.81  8110.694
1343.31  8321.5
1343.81  8299.22
1344.31  8244.22
1344.81  8200.14
1345.31  8010.81
1345.81  8170.71
1346.31  8263.45
1346.81  8333.02
1347.31  8428.18
1347.81  8302.9
1348.31  8367.14
1348.81  8464.06
1349.31  8478.39
1349.81  8521.17
1350.31  8613.14
1350.81  8619.88
1351.31  8679.53
1351.81  8746.17
1352.31  8759.47
1352.81  8643.78
1353.31  8651.55
1353.81  8640.97
1354.31  8603.67
1354.81  8662.63
1355.31  8689.69
1355.81  8694.686
1356.31  8645.93
1356.81  8732.96
1357.31  8572.84
1357.81  8682.69
1358.31  8650.59
1358.81  8926.47
1359.31  8818.46
1359.81  8622.1
1360.31  8697.72
1360.81  8820.46
1361.31  8866.85
1361.81  8822.61
1362.31  8815.63
1362.81  8860.53
1363.31  8990.57
1363.81  8944.54
1364.31  9184.71
1364.81  8863.64
1365.31  8953.962
1365.81  9061.23
1366.31  8967.24
1366.81  8969.301
1367.31  8971.06
1367.81  9112.97
1368.31  8947.72
1368.81  9050.13
1369.31  8959.85
1369.81  9001.33
1370.31  9052.543
1370.81  8932.409
1371.31  8880.09
1371.81  9056.44
1372.31  8901.35
1372.81  8919.92
1373.31  8791.89
1373.81  8949.22
1374.31  8918.41
1374.81  8913.2
1375.31  8952.52
1375.81  9158
1376.31  9092.34
1376.81  9227.828
1377.31  9033.73
1377.81  9045.15
1378.31  9187.83
1378.81  9106.64
1379.31  9093.13
1379.81  9191.83
1380.31  9310.1
1380.81  9558.68
1381.31  9438.3
1381.81  9387.41
1382.31  9450.11
1382.81  9347.539
1383.31  9531.7
1383.81  9524.38
1384.31  9470.58
1384.81  9557.3
1385.31  9247.78
1385.81  9551.402
1386.31  9596.02
1386.81  9341.42
1387.31  9527.62
1387.81  9356.73
1388.31  9376.32
1388.81  9437.16
1389.31  9402.35
1389.81  9099.28
1390.31  9053.14
1390.81  8990.33
1391.31  9051.49
1391.81  8960.02
1392.31  8747.023
1392.81  8848.76
1393.31  8961.15
1393.81  8852.23
1394.31  8916.207
1394.81  8943.51
1395.31  8824.12
1395.81  8849.85
1396.31  8836.63
1396.81  8909.94
1397.31  8926.66
1397.81  8995.98
1398.31  9185.54
1398.81  9170.11
1399.31  9026.85
1399.81  9101.6
1400.31  9052.95
1400.81  9406.744
1401.31  9519.64
1401.81  9573
1402.31  9511.6
1402.81  9583
1403.31  9465.827
1403.81  9480.1
1404.31  9462.58
1404.81  9320.17
1405.31  9403.7
1405.81  9431.94
1406.31  9484.76
1406.81  9527.41
1407.31  9746.38
1407.81  9778.97
1408.31  10228.643
1408.81  10758.109
1409.31  11555.904
1409.81  12981.11
1410.31  16568.381
1410.81  22305.363
1411.31  29357.034
1411.81  28162.047
1412.31  18694.279
1412.81  13170.588
1413.31  13728.666
1413.81  18423.938
1414.31  27160.265
1414.81  33717.287
1415.31  26061.048
1415.81  12916.308
1416.31  7139.6
1416.81  5567.6
1417.31  5274.27
1417.81  5180.734
1418.31  5042.51
1418.81  5101.27
1419.31  5087.012
1419.81  5067.85
1420.31  5371.51
1420.81  5657.16
1421.31  6025.64
1421.81  6335.49
1422.31  6803.42
1422.81  7416.27
1423.31  8065.68
1423.81  8007.152
1424.31  7786.51
1424.81  7514.86
1425.31  7097.99
1425.81  6272.72
1426.31  5912.53
1426.81  5551.93
1427.31  4946.09
1427.81  4464.94
1428.31  4404.48
1428.81  4350.41
1429.31  4218.06
1429.81  4198.98
1430.31  4265.15
1430.81  4265.98
1431.31  4334.51
1431.81  4642.14
1432.31  4850.81
1432.81  4982.724
1433.31  5099.163
1433.81  5351.05
1434.31  5401.36
1434.81  5364.38
1435.31  5441.81
1435.81  5159.673
1436.31  4930.41
1436.81  4630.13
1437.31  4496.3
1437.81  4237.12
1438.31  4010.03
1438.81  3890.84
1439.31  3803.04
1439.81  3654.04
1440.31  3429.09
1440.81  3334.95
1441.31  3423.2
1441.81  3423.37
1442.31  3388.93
1442.81  3368.45
1443.31  3493.11
1443.81  3563.87
1444.31  3788.41
1444.81  4019.89
1445.31  4411.69
1445.81  4760.21
1446.31  5485.474
1446.81  6452.68
1447.31  7859.47
1447.81  9572.13
1448.31  10675.29
1448.81  11040.221
1449.31  10105.439
1449.81  8932.59
1450.31  7580.04
1450.81  6553.42
1451.31  5195.08
1451.81  4046.43
1452.31  2946.07
1452.81  2186.28
1453.31  1973.54
1453.81  1754.44
1454.31  1578.2
1454.81  1484.651
1455.31  1496.05
1455.81  1420.88
1456.31  1394.98
1456.81  1350.395
1457.31  1389.79
1457.81  1290.23
1458.31  1290.7
1458.81  1283.79
1459.31  1300.11
1459.81  1413.67
1460.31  1543.48
1460.81  1626.98
1461.31  2113.31
1461.81  2599.23
1462.31  2993.14
1462.81  3615.258
1463.31  3883.837
1463.81  3758.29
1464.31  3400.73
1464.81  2813.82
1465.31  2236.92
1465.81  1905.73
1466.31  1564.506
1466.81  1382.19
1467.31  1249.82
1467.81  1182.4
1468.31  1090.26
1468.81  1061.19
1469.31  994.184
1469.81  953.748
1470.31  929.567
1470.81  895.578
1471.31  846.578
1471.81  703.123
1472.31  715.191
1472.81  749.852
1473.31  767.117
1473.81  773.36
1474.31  726.647
1474.81  682.0028
1475.31  751.696
1475.81  813.557
1476.31  869.462
1476.81  1089.97
1477.31  1489.1
1477.81  1876.69
1478.31  2238.6
1478.81  2538.43
1479.31  2680.71
1479.81  2951.21
1480.31  3107.49
1480.81  3182.42
1481.31  3163.11
1481.81  2893.79
1482.31  2596.25
1482.81  2364.41
1483.31  2315.74
1483.81  2317.83
1484.31  2264.6
1484.81  2159.11
1485.31  1858.71
1485.81  1379.94
1486.31  663.065
1486.81  166.095
1487.31  34.7518
1487.81  9.48956
1488.31  6.483904
1488.81  7.462896
1489.31  7.614496
1489.81  3.23199
1490.31  8.41592
1490.81  2.437496
1491.31  3.241304

# Group:                        1025eV near camera
#
# Region:                       Spectrum
# Spectrum ID:                  118
# Acquisition Date:             03/18/25 16:40:00 UTC
# Analysis Method:              ISS
# Analyzer:                     Analyzer Munich
# Analyzer Lens:                LargeArea:3.5kV
# Analyzer Slit:                5:7x20c\C:mesh
# Scan Mode:                    FixedAnalyzerTransmission
# Scan Variable:                Kinetic Energy
# Curves/Scan:                  1
# Values/Curve:                 268
# Dwell Time:                   0.1
# Excitation Energy:            1025
# Kinetic Energy:               200
# Pass Energy:                  90
# Bias Voltage:                 0
# Detector Voltage:             1750
# Eff. Workfunction:            4.367
# Source:                       Low Energy Scannable Ion Source
# Comment:

# Cycle: 0
#
# Number of Scans: 5

# Cycle: 0, Curve: 0
#
# Acquisition Date:             03/18/25 16:40:00 UTC
# ColumnLabels:                 energy counts/s
#
200  35.9638
203  34.1832
206  44.265
209  47.216
212  46.2364
215  42.2637
218  53.6348
221  46.2028
224  44.7766
227  64.6822
230  43.6776
233  43.282
236  58.4126
239  61.3835
242  66.3082
245  63.93902
248  56.2774
251  62.4924
254  61.1598
257  72.8636
260  62.29652
263  71.9499
266  72.1494
269  84.3694
272  84.1682
275  87.13822
278  87.767
281  93.3225
284  81.0706
287  84.5922
290  90.7113
293  93.1595
296  93.0386
299  113.3503
302  132.038
305  108.54
308  99.5676
311  104.894
314  108.015
317  115.673
320  115.18
323  112.374
326  149.964
329  156.478
332  177.2309
335  155.141
338  139.308
341  121.784
344  119.859
347  137.561
350  149.304
353  179.368
356  179.994
359  196.9178
362  247.8523
365  274.951
368  346.483
371  351.54
374  395.991
377  444.872
380  482.42
383  519.202
386  579.156
389  670.984
392  695.467
395  743.677
398  812.958
401  793.841
404  787.145
407  698.798
410  682.513
413  559.093
416  561.022
419  565.661
422  469.526
425  444.446
428  496.761
431  477.164
434  432.291
437  439.3772
440  438.923
443  470.41
446  507.487
449  474.196
452  497.163
455  510.887
458  509.726
461  444.205
464  464.28
467  486.1251
470  460.792
473  443.936
476  455.394
479  384.466
482  402.604
485  382.794
488  364.613
491  348.371
494  349.719
497  288.09
500  283.002
503  290.255
506  332.139
509  326.3329
512  248.929
515  264.544
518  302.481
521  273.3037
524  318.087
527  310.544
530  324.1605
533  277.702
536  352.133
539  305.4171
542  323.636
545  331.421
548  341.231
551  325.96
554  348.138
557  330.998
560  297.758
563  299.5558
566  336.288
569  344.148
572  343.372
575  346.526
578  343.851
581  311.515
584  317.808
587  334.638
590  344.401
593  338.242
596  340.888
599  302.847
602  321.568
605  333.647
608  356.896
611  346.315
614  382.909
617  413.6564
620  384.988
623  353.345
626  369.316
629  372.7031
632  376.214
635  315.315
638  337.007
641  350.716
644  389.025
647  374.7
650  400.764
653  394.783
656  417.816
659  431.528
662  439.499
665  475.271
668  453.187
671  405.429
674  430.705
677  506.804
680  533.295
683  550.024
686  573.541
689  599.523
692  626.057
695  670.543
698  729.564
701  822.392
704  915.358
707  1017.82
710  1021.4
713  1201.53
716  1195.8
719  1213.31
722  1237.17
725  1257.91
728  1250.42
731  1128.44
734  1102.09
737  1018.28
740  794.519
743  703.64
746  580.758
749  500.836
752  436.86
755  341.556
758  308.079
761  250.9998
764  219.615
767  201.4015
770  167.167
773  170.3504
776  152.764
779  131.207
782  106.712
785  104.5611
788  73.9771
791  63.2575
794  56.7066
797  49.7676
800  42.6616
803  32.4273
806  34.4653
809  33.90651
812  26.4439
815  16.9081
818  19.1559
821  13.3136
824  12.6307
827  23.4469
830  23.9159
833  24.0077
836  18.2157
839  15.7316
842  10.9389
845  9.98098
848  8.03556
851  13.5246
854  10.9242
857  18.789
860  15.0783
863  17.3532
866  13.8317
869  7.376386
872  9.24724
875  12.0978
878  10.5258
881  15.5317
884  10.15997
887  11.658
890  6.72321
893  11.61
896  12.4736
899  14.099
902  17.821
905  26.5732
908  18.2715
911  25.6807
914  31.1866
917  25.2981
920  19.8543
923  28.6575
926  42.9644
929  35.7901
932  36.5431
935  49.5025
938  37.5402
941  26.0858
944  13.6912
947  4.91988
950  6.83756
953  6.86431
956  2.79426
959  0
962  0
965  4.39247
968  4.65378
971  2.556006
974  3.759902
977  0.63784
980  0.225848
983  7.492594
986  0.281558
989  1.253712
992  2.141086
995  0.605202
998  0
1001  0

# Region:                       Spectrum
# Spectrum ID:                  119
# Acquisition Date:             03/19/25 08:06:53 UTC
# Analysis Method:              ISS
# Analyzer:                     Analyzer Munich
# Analyzer Lens:                LargeArea:3.5kV
# Analyzer Slit:                5:7x20c\C:mesh
# Scan Mode:                    FixedAnalyzerTransmission
# Scan Variable:                Kinetic Energy
# Curves/Scan:                  1
# Values/Curve:                 268
# Dwell Time:                   0.1
# Excitation Energy:            1025
# Kinetic Energy:               200
# Pass Energy:                  90
# Bias Voltage:                 0
# Detector Voltage:             1750
# Eff. Workfunction:            4.367
# Source:                       Low Energy Scannable Ion Source
# Comment:

# Cycle: 0
#
# Number of Scans: 11

# Cycle: 0, Curve: 0
#
# Acquisition Date:             03/19/25 08:06:53 UTC
# ColumnLabels:                 energy counts/s
#
200  41.1025
203  39.9919
206  41.3682
209  38.2036
212  42.1908
215  35.1126
218  43.3783
221  44.4926
224  48.62971
227  49.8281
230  52.6232
233  45.0387
236  47.1444
239  50.3322
242  60.6297
245  49.3983
248  67.4453
251  72.4277
254  66.063
257  67.372
260  63.6443
263  82.7774
266  66.4221
269  74.3238
272  78.3935
275  79.9548
278  84.1464
281  80.4443
284  87.50494
287  81.2889
290  92.2355
293  87.6258
296  106.0524
299  100.289
302  93.9416
305  106.639
308  93.9051
311  98.1902
314  104.366
317  111.839
320  104.18
323  109.314
326  118.125
329  117.902
332  133.1024
335  133.951
338  134.936
341  145.315
344  136.07
347  154.694
350  166.011
353  183.2
356  188.761
359  215.5663
362  225.528
365  260.357
368  339.455
371  386.9878
374  405.706
377  483.143
380  527.252
383  605.9145
386  670.2509
389  717.123
392  732.659
395  764.886
398  755.965
401  728.178
404  695.998
407  734.602
410  658.695
413  606.688
416  587.857
419  551.253
422  507.155
425  487.268
428  454.887
431  479.338
434  480.775
437  480.19
440  460.451
443  456.2696
446  456.745
449  470.5892
452  464.003
455  465.856
458  490.941
461  443.784
464  458.145
467  413.824
470  443.493
473  380.744
476  393.26
479  402.447
482  376.3266
485  395.336
488  353.317
491  325.61
494  325.813
497  314.433
500  332.737
503  303.694
506  293.528
509  303.529
512  302.694
515  302.347
518  308.495
521  309.191
524  324.984
527  336.364
530  329.89
533  343.282
536  351.296
539  357.726
542  324.7138
545  319.113
548  319.621
551  334.758
554  345.957
557  324.46
560  332.554
563  326.986
566  361.723
569  352.995
572  350.33
575  344.534
578  326.874
581  363.174
584  330.335
587  359.717
590  365.109
593  364.039
596  383.439
599  361.365
602  367.955
605  374.076
608  355.909
611  364.863
614  351.079
617  354.171
620  371.2131
623  370.11
626  409.722
629  387.199
632  394.977
635  391.389
638  408.257
641  402.04
644  451.064
647  442.311
650  452.46
653  432.1319
656  429.514
659  446.707
662  455.118
665  452.461
668  457.582
671  486.17
674  545.352
677  558.437
680  568.643
683  610.86
686  656.745
689  689.566
692  754.112
695  792.796
698  867.847
701  1004.545
704  1058.02
707  1171.835
710  1188.176
713  1272.76
716  1372.26
719  1480.2
722  1482.45
725  1434.153
728  1305.63
731  1257.42
734  1163.91
737  1072.5
740  911.804
743  812.41
746  681.6452
749  523.923
752  474.561
755  391.455
758  330.271
761  276.492
764  247.18
767  192.2695
770  178.298
773  184.852
776  158.268
779  140.348
782  120.092
785  95.5921
788  89.4553
791  85.7422
794  86.8612
797  61.6486
800  63.2019
803  54.6172
806  45.4786
809  45.8758
812  45.4081
815  47.054
818  38.62344
821  33.93
824  45.519
827  41.3633
830  37.81
833  45.2946
836  30.3577
839  40.6934
842  42.8906
845  36.8509
848  32.2662
851  33.6059
854  43.3039
857  33.2845
860  36.8513
863  43.5792
866  29.0314
869  34.8155
872  23.2718
875  24.5705
878  27.0645
881  25.6202
884  25.68043
887  27.169
890  33.2585
893  45.4633
896  38.7826
899  38.8026
902  50.9324
905  61.7922
908  62.51181
911  61.1976
914  71.5883
917  86.0866
920  92.8758
923  102.7146
926  112.18
929  120.628
932  107.972
935  106.192
938  96.06516
941  59.7814
944  48.9365
947  29.0497
950  20.4674
953  9.74397
956  4.38837
959  4.26065
962  3.29067
965  3.38632
968  0.984261
971  0.848754
974  1.29788
977  1.15374
980  0.234161
983  1.28629
986  1.14726
989  1.87774
992  0.81507
995  0.652568
998  0.63372
1001  2.44142